Folder: Fe-Co-Ni_Phase_Diagram_Calculation

File: Model_FeCoNi-XRD_feature.csv
22,22.5,25.5,32.5,36.5,39.5,43.6,46.5,52.5
1,0,1,0,1,0,1,1,0
1,0,1,0,1,0,1,1,1
1,0,1,0,1,0,1,1,0
1,0,1,0,1,0,1,1,0
1,0,1,0,1,0,1,0,0
1,0,1,0,1,0,1,0,0
1,0,1,0,1,0,1,0,0
1,0,1,0,1,0,1,0,0
1,0,1,0,1,0,1,0,0
1,0,1,0,1,0,1,0,0
1,0,1,0,1,0,1,0,0
1,1,1,1,1,1,1,1,0
1,1,1,0,1,0,1,0,0
1,0,1,0,1,0,1,0,0
1,0,1,0,1,0,1,0,0
1,1,1,1,1,1,1,0,0
1,1,1,1,1,1,1,0,0
1,0,1,0,1,0,1,0,0
1,0,1,0,1,0,1,0,0
1,0,1,0,1,0,1,0,0
1,1,1,1,1,1,1,1,1
1,1,1,1,1,1,1,1,1
1,1,1,1,1,1,1,0,1
1,0,1,0,1,0,1,0,0
1,0,1,0,1,0,1,0,0
1,1,1,1,1,1,1,1,1
1,1,1,1,1,1,1,1,1
0,1,1,1,1,1,1,1,1
1,1,1,1,1,1,1,0,1
1,0,1,0,1,0,1,0,0
1,0,1,0,1,0,1,0,0
1,1,1,1,1,1,1,1,1
0,1,1,1,1,1,1,1,1
0,1,1,1,1,1,1,1,1
1,1,1,1,1,1,1,1,1
1,1,1,1,1,1,1,1,1
1,1,1,0,1,0,1,0,0
1,0,1,0,1,0,1,0,0
0,1,1,1,1,1,1,1,1
1,1,1,1,1,1,1,1,1
0,1,1,1,1,1,1,1,1
0,1,1,1,1,1,1,1,1
1,1,1,1,1,1,1,1,1
1,1,1,1,1,1,1,1,1
1,0,1,0,1,0,1,0,0
1,0,1,0,1,0,1,0,0
0,1,1,1,1,1,1,1,1
0,1,1,1,1,1,1,1,1
0,1,1,1,1,1,1,1,1
0,1,1,1,1,1,1,1,1
1,1,1,1,1,1,1,1,1
1,1,1,1,1,1,1,1,1
1,1,1,0,1,1,1,0,1
1,0,1,0,1,0,1,0,0
0,1,1,1,1,1,1,1,1
0,1,1,1,1,1,1,1,1
0,1,1,1,1,1,1,1,1
0,1,1,1,1,1,1,1,1
0,1,1,1,1,1,1,1,1
1,1,1,1,1,1,1,1,1
1,1,1,1,1,1,1,1,1
1,1,1,1,1,1,1,0,0
1,0,1,0,1,0,1,0,0
0,1,1,1,1,1,1,1,1
0,1,1,1,1,1,1,1,1
0,1,1,1,1,1,1,1,1
0,1,1,1,1,1,1,1,1
0,1,1,1,1,1,1,1,1
0,1,1,1,1,1,1,1,1
1,1,1,1,1,1,1,1,1
1,1,1,1,1,1,1,1,1
1,0,1,0,1,0,1,0,0
1,1,0,1,0,1,0,1,1
1,1,1,1,0,1,0,1,1
1,1,1,1,0,1,1,1,1
0,1,1,1,0,1,1,1,1
0,1,1,1,0,1,1,1,1
0,1,1,1,0,1,1,1,1
1,1,1,1,0,1,1,1,1
1,1,1,1,0,1,1,1,1
1,1,1,1,0,1,1,1,1
1,0,1,0,1,0,1,0,0
1,0,0,1,1,1,0,1,1
1,0,1,1,0,1,0,1,1
1,0,1,1,1,1,1,1,1
1,0,1,1,1,1,1,1,1
1,1,1,1,1,1,1,1,1
1,1,1,1,1,1,1,1,1
1,1,1,1,1,1,1,1,1
1,1,1,1,1,1,1,0,1
1,0,1,0,1,0,1,0,0
0,1,0,1,0,1,0,1,1
0,1,1,1,0,1,0,1,1
0,1,1,1,1,1,1,1,1
0,1,1,1,1,1,1,1,1
1,1,1,1,1,1,1,1,1
1,1,1,1,1,1,1,1,1
1,1,1,1,1,1,1,1,1
1,1,1,0,1,0,1,0,0
1,0,1,0,1,0,1,0,0
0,1,1,1,0,1,0,1,1
0,1,1,1,1,1,1,1,1
1,1,1,1,1,1,1,1,1
1,1,1,1,1,1,1,1,1
1,1,1,1,1,1,1,1,1
1,1,1,1,1,1,1,0,1
1,0,1,0,1,0,1,0,0
1,0,1,0,1,0,1,0,0
0,1,1,1,1,1,1,1,1
0,1,1,1,1,1,1,1,1
1,1,1,1,1,1,1,1,1
1,1,1,1,1,1,1,1,1
1,1,1,1,1,1,1,1,1
1,1,1,1,1,1,1,0,1
1,0,1,0,1,0,1,0,0
0,1,1,1,0,1,0,1,1
0,1,1,1,1,1,1,1,1
1,1,1,1,1,1,1,1,1
1,1,1,1,1,1,1,1,1
1,1,1,1,1,1,1,1,1
1,1,1,1,1,1,1,0,1
1,0,1,0,1,0,1,0,0
0,1,1,1,0,1,0,1,1
1,1,1,1,1,1,1,1,1
1,1,1,1,1,1,1,1,1
1,1,1,1,1,1,1,1,1
1,1,1,1,1,1,1,1,1
1,0,1,0,1,0,1,0,0
1,1,1,1,1,1,1,1,1
1,1,1,1,1,1,1,1,1
1,1,1,1,1,1,1,1,1
1,1,1,1,1,1,1,0,1
1,0,1,0,1,0,1,0,0
1,1,1,1,1,1,1,1,1
1,1,1,1,1,1,1,1,1
1,1,1,1,1,1,1,1,1
1,0,1,1,1,0,1,1,0
1,0,1,0,1,0,1,0,0
1,1,1,1,1,1,1,1,1
1,1,1,1,1,1,1,1,1
1,0,1,0,1,0,1,0,0
1,0,1,0,1,0,1,1,0
1,1,1,1,1,1,1,1,1
1,1,1,1,1,1,1,1,1
1,0,1,0,1,0,1,1,0
1,1,1,1,1,1,1,1,1
1,1,1,1,1,1,1,1,1
1,0,1,0,1,0,1,1,0
1,0,1,0,1,0,1,1,0
1,0,1,0,1,0,1,1,0
1,0,1,0,1,0,1,1,0
1,0,1,0,1,0,1,1,0
1,0,1,0,1,0,1,1,0